Folder: uxd/dat (part 2)

File: ass-stand_dfc_new.UXD
; C:\DIFFDAT1\GIFT\MML\youngung\standard_Aust_ss\ass-stnd_R.raw(Diffrac Plus V1.01 file) converted by XCH V1.0
_FILEVERSION=2
_SITE='Korea'
_USER='Admin'
_SAMPLE_CHANGER_CODE=0
_ATTACHMENTS_CODE=0
_GONIOMETER_RADIUS=300
_FIXED_DIVSLIT=1.000000
_FIXED_SAMPLESLIT=0.000000
_FIXED_DETSLIT=0.100000
_MONOCHROMATOR=0
; None
_THIN_FILM='N'
_BETA_FILTER='Y'
_FIXED_ANTISLIT=0.600000
_ANALYZER_CODE=0
; None
_DATEMEASURED='20-Jan-2011 02:25:01'
_WL_UNIT='A'
_WL1=1.788970
_WL2=1.792850
_WL3=1.620790
_WLRATIO=0.500000
_ANODE='Co'
; (Data for Range number 1)
_DRIVE='PHI'
_STEPTIME=2.000000
_STEPSIZE=5.000000
_STEPMODE='C'
_START=0.000000
_THETA=25.515
_2THETA=51.03
_KHI=0.000000
_PHI=0.000000
_X=0.000000
_Y=0.000000
_Z=0.000000
_DIVERGENCE=3.000000
_ANTISCATTER=3.000000
_DETECTOR=1
; S.C.
_HV=687
_GAIN=80
_LLD=0.690000
_ULD=1.866000
_DETECTORSLIT='unkn'
_AUX1=0.000000
_AUX2=0.000000
_AUX3=0.000000
_TIMESTARTED=10
_TEMP_RATE=0.000000
_TEMP_DELAY=0.000000
_KV=35
_MA=40
_RANGE_WL=1.788970
_3DPLANE=0
_2THETACOUNTS
   0.0000      2445
   5.0000      2615
  10.0000      2602
  15.0000      2667
  20.0000      2567
  25.0000      2497
  30.0000      2581
  35.0000      2536
  40.0000      2506
  45.0000      2480
  50.0000      2578
  55.0000      2678
  60.0000      2702
  65.0000      2698
  70.0000      2667
  75.0000      2737
  80.0000      2785
  85.0000      2902
  90.0000      2973
  95.0000      2890
 100.0000      2684
 105.0000      2913
 110.0000      2732
 115.0000      2652
 120.0000      2618
 125.0000      2561
 130.0000      2460
 135.0000      2506
 140.0000      2514
 145.0000      2719
 150.0000      2727
 155.0000      2683
 160.0000      2471
 165.0000      2408
 170.0000      2274
 175.0000      2493
 180.0000      2569
 185.0000      2708
 190.0000      2853
 195.0000      2900
 200.0000      2787
 205.0000      2744
 210.0000      2732
 215.0000      2606
 220.0000      2699
 225.0000      2871
 230.0000      2886
 235.0000      3069
 240.0000      2986
 245.0000      3022
 250.0000      3103
 255.0000      3337
 260.0000      3474
 265.0000      3532
 270.0000      3347
 275.0000      3312
 280.0000      3206
 285.0000      3210
 290.0000      3126
 295.0000      2968
 300.0000      2781
 305.0000      2751
 310.0000      2834
 315.0000      2655
 320.0000      2780
 325.0000      2920
 330.0000      2734
 335.0000      2742
 340.0000      2820
 345.0000      2574
 350.0000      2649
 355.0000      2551
; (Data for Range number 2)
_DRIVE='PHI'
_STEPTIME=2.000000
_STEPSIZE=5.000000
_STEPMODE='C'
_START=0.000000
_THETA=25.515
_2THETA=51.03
_KHI=5.000000
_PHI=0.000000
_X=0.000000
_Y=0.000000
_Z=0.000000
_DIVERGENCE=3.000000
_ANTISCATTER=3.000000
_DETECTOR=1
; S.C.
_HV=687
_GAIN=80
_LLD=0.690000
_ULD=1.866000
_DETECTORSLIT='unkn'
_AUX1=0.000000
_AUX2=0.000000
_AUX3=0.000000
_TIMESTARTED=215
_TEMP_RATE=0.000000
_TEMP_DELAY=0.000000
_KV=35
_MA=40
_RANGE_WL=1.788970
_3DPLANE=0
_2THETACOUNTS
   0.0000      2342
   5.0000      2184
  10.0000      2306
  15.0000      2495
  20.0000      2569
  25.0000      2725
  30.0000      2369
  35.0000      2374
  40.0000      2462
  45.0000      2561
  50.0000      2644
  55.0000      2563
  60.0000      2581
  65.0000      2362
  70.0000      2426
  75.0000      2579
  80.0000      2431
  85.0000      2492
  90.0000      2591
  95.0000      2673
 100.0000      2330
 105.0000      2289
 110.0000      2241
 115.0000      2085
 120.0000      2072
 125.0000      2185
 130.0000      2206
 135.0000      2287
 140.0000      2203
 145.0000      2313
 150.0000      2355
 155.0000      2579
 160.0000      2681
 165.0000      2546
 170.0000      2641
 175.0000      2549
 180.0000      2550
 185.0000      2390
 190.0000      2532
 195.0000      2342
 200.0000      2537
 205.0000      2679
 210.0000      2291
 215.0000      2268
 220.0000      2353
 225.0000      2519
 230.0000      2371
 235.0000      2546
 240.0000      2322
 245.0000      2574
 250.0000      2447
 255.0000      2543
 260.0000      2357
 265.0000      2174
 270.0000      2631
 275.0000      2484
 280.0000      2446
 285.0000      2540
 290.0000      2877
 295.0000      2775
 300.0000      2471
 305.0000      2396
 310.0000      2441
 315.0000      2501
 320.0000      2360
 325.0000      2436
 330.0000      2347
 335.0000      2214
 340.0000      2049
 345.0000      2440
 350.0000      2062
 355.0000      2300
; (Data for Range number 3)
_DRIVE='PHI'
_STEPTIME=2.000000
_STEPSIZE=5.000000
_STEPMODE='C'
_START=0.000000
_THETA=25.515
_2THETA=51.03
_KHI=10
_PHI=0.000000
_X=0.000000
_Y=0.000000
_Z=0.000000
_DIVERGENCE=3.000000
_ANTISCATTER=3.000000
_DETECTOR=1
; S.C.
_HV=687
_GAIN=80
_LLD=0.690000
_ULD=1.866000
_DETECTORSLIT='unkn'
_AUX1=0.000000
_AUX2=0.000000
_AUX3=0.000000
_TIMESTARTED=420
_TEMP_RATE=0.000000
_TEMP_DELAY=0.000000
_KV=35
_MA=40
_RANGE_WL=1.788970
_3DPLANE=0
_2THETACOUNTS
   0.0000      2633
   5.0000      2718
  10.0000      2708
  15.0000      2267
  20.0000      2356
  25.0000      2193
  30.0000      2149
  35.0000      2476
  40.0000      2785
  45.0000      2835
  50.0000      3110
  55.0000      2523
  60.0000      2393
  65.0000      2485
  70.0000      2270
  75.0000      2294
  80.0000      2158
  85.0000      2487
  90.0000      2739
  95.0000      2421
 100.0000      2527
 105.0000      2514
 110.0000      2463
 115.0000      2393
 120.0000      2697
 125.0000      2390
 130.0000      2317
 135.0000      2341
 140.0000      2334
 145.0000      2507
 150.0000      2342
 155.0000      2410
 160.0000      2458
 165.0000      2559
 170.0000      2429
 175.0000      2402
 180.0000      2507
 185.0000      2354
 190.0000      2499
 195.0000      2372
 200.0000      2495
 205.0000      2560
 210.0000      2346
 215.0000      2545
 220.0000      2172
 225.0000      2551
 230.0000      2517
 235.0000      2432
 240.0000      2444
 245.0000      2593
 250.0000      2687
 255.0000      2619
 260.0000      2830
 265.0000      2492
 270.0000      2347
 275.0000      2465
 280.0000      2206
 285.0000      2492
 290.0000      2425
 295.0000      2277
 300.0000      2460
 305.0000      2409
 310.0000      2698
 315.0000      2385
 320.0000      2416
 325.0000      2337
 330.0000      2384
 335.0000      2334
 340.0000      2308
 345.0000      2581
 350.0000      2898
 355.0000      2138
; (Data for Range number 4)
_DRIVE='PHI'
_STEPTIME=2.000000
_STEPSIZE=5.000000
_STEPMODE='C'
_START=0.000000
_THETA=25.515
_2THETA=51.03
_KHI=15
_PHI=0.000000
_X=0.000000
_Y=0.000000
_Z=0.000000
_DIVERGENCE=3.000000
_ANTISCATTER=3.000000
_DETECTOR=1
; S.C.
_HV=687
_GAIN=80
_LLD=0.690000
_ULD=1.866000
_DETECTORSLIT='unkn'
_AUX1=0.000000
_AUX2=0.000000
_AUX3=0.000000
_TIMESTARTED=625
_TEMP_RATE=0.000000
_TEMP_DELAY=0.000000
_KV=35
_MA=40
_RANGE_WL=1.788970
_3DPLANE=0
_2THETACOUNTS
   0.0000      2459
   5.0000      2651
  10.0000      2451
  15.0000      2443
  20.0000      2429
  25.0000      2398
  30.0000      2272
  35.0000      2418
  40.0000      2402
  45.0000      2202
  50.0000      2379
  55.0000      2298
  60.0000      2230
  65.0000      2406
  70.0000      2706
  75.0000      2477
  80.0000      2469
  85.0000      2229
  90.0000      2759
  95.0000      2445
 100.0000      2485
 105.0000      2381
 110.0000      2456
 115.0000      2337
 120.0000      2236
 125.0000      2314
 130.0000      2174
[...]
_AUX2=0.000000
_AUX3=0.000000
_TIMESTARTED=17234
_TEMP_RATE=0.000000
_TEMP_DELAY=0.000000
_KV=35
_MA=40
_RANGE_WL=1.788970
_3DPLANE=0
_2THETACOUNTS
   0.0000      5271
; (Data for Range number 198)
_DRIVE='PHI'
_STEPTIME=20
_STEPSIZE=5.000000
_STEPMODE='S'
_START=0.000000
_THETA=57.5
_2THETA=115
_KHI=50
_PHI=0.000000
_X=0.000000
_Y=0.000000
_Z=0.000000
_DIVERGENCE=3.000000
_ANTISCATTER=3.000000
_DETECTOR=1
; S.C.
_HV=687
_GAIN=80
_LLD=0.690000
_ULD=1.866000
_DETECTORSLIT='unkn'
_AUX1=0.000000
_AUX2=0.000000
_AUX3=0.000000
_TIMESTARTED=17259
_TEMP_RATE=0.000000
_TEMP_DELAY=0.000000
_KV=35
_MA=40
_RANGE_WL=1.788970
_3DPLANE=0
_2THETACOUNTS
   0.0000      5255
; (Data for Range number 199)
_DRIVE='PHI'
_STEPTIME=20
_STEPSIZE=5.000000
_STEPMODE='S'
_START=0.000000
_THETA=57.5
_2THETA=115
_KHI=55
_PHI=0.000000
_X=0.000000
_Y=0.000000
_Z=0.000000
_DIVERGENCE=3.000000
_ANTISCATTER=3.000000
_DETECTOR=1
; S.C.
_HV=687
_GAIN=80
_LLD=0.690000
_ULD=1.866000
_DETECTORSLIT='unkn'
_AUX1=0.000000
_AUX2=0.000000
_AUX3=0.000000
_TIMESTARTED=17283
_TEMP_RATE=0.000000
_TEMP_DELAY=0.000000
_KV=35
_MA=40
_RANGE_WL=1.788970
_3DPLANE=0
_2THETACOUNTS
   0.0000      5235
; (Data for Range number 200)
_DRIVE='PHI'
_STEPTIME=20
_STEPSIZE=5.000000
_STEPMODE='S'
_START=0.000000
_THETA=57.5
_2THETA=115
_KHI=60
_PHI=0.000000
_X=0.000000
_Y=0.000000
_Z=0.000000
_DIVERGENCE=3.000000
_ANTISCATTER=3.000000
_DETECTOR=1
; S.C.
_HV=687
_GAIN=80
_LLD=0.690000
_ULD=1.866000
_DETECTORSLIT='unkn'
_AUX1=0.000000
_AUX2=0.000000
_AUX3=0.000000
_TIMESTARTED=17308
_TEMP_RATE=0.000000
_TEMP_DELAY=0.000000
_KV=35
_MA=40
_RANGE_WL=1.788970
_3DPLANE=0
_2THETACOUNTS
   0.0000      5024
; (Data for Range number 201)
_DRIVE='PHI'
_STEPTIME=20
_STEPSIZE=5.000000
_STEPMODE='S'
_START=0.000000
_THETA=57.5
_2THETA=115
_KHI=65
_PHI=0.000000
_X=0.000000
_Y=0.000000
_Z=0.000000
_DIVERGENCE=3.000000
_ANTISCATTER=3.000000
_DETECTOR=1
; S.C.
_HV=687
_GAIN=80
_LLD=0.690000
_ULD=1.866000
_DETECTORSLIT='unkn'
_AUX1=0.000000
_AUX2=0.000000
_AUX3=0.000000
_TIMESTARTED=17333
_TEMP_RATE=0.000000
_TEMP_DELAY=0.000000
_KV=35
_MA=40
_RANGE_WL=1.788970
_3DPLANE=0
_2THETACOUNTS
   0.0000      5067
; (Data for Range number 202)
_DRIVE='PHI'
_STEPTIME=20
_STEPSIZE=5.000000
_STEPMODE='S'
_START=0.000000
_THETA=57.5
_2THETA=115
_KHI=70
_PHI=0.000000
_X=0.000000
_Y=0.000000
_Z=0.000000
_DIVERGENCE=3.000000
_ANTISCATTER=3.000000
_DETECTOR=1
; S.C.
_HV=687
_GAIN=80
_LLD=0.690000
_ULD=1.866000
_DETECTORSLIT='unkn'
_AUX1=0.000000
_AUX2=0.000000
_AUX3=0.000000
_TIMESTARTED=17358
_TEMP_RATE=0.000000
_TEMP_DELAY=0.000000
_KV=35
_MA=40
_RANGE_WL=1.788970
_3DPLANE=0
_2THETACOUNTS
   0.0000      4981
; (Data for Range number 203)
_DRIVE='PHI'
_STEPTIME=20
_STEPSIZE=5.000000
_STEPMODE='S'
_START=0.000000
_THETA=57.5
_2THETA=115
_KHI=75
_PHI=0.000000
_X=0.000000
_Y=0.000000
_Z=0.000000
_DIVERGENCE=3.000000
_ANTISCATTER=3.000000
_DETECTOR=1
; S.C.
_HV=687
_GAIN=80
_LLD=0.690000
_ULD=1.866000
_DETECTORSLIT='unkn'
_AUX1=0.000000
_AUX2=0.000000
_AUX3=0.000000
_TIMESTARTED=17382
_TEMP_RATE=0.000000
_TEMP_DELAY=0.000000
_KV=35
_MA=40
_RANGE_WL=1.788970
_3DPLANE=0
_2THETACOUNTS
   0.0000      5215
; (Data for Range number 204)
_DRIVE='PHI'
_STEPTIME=20
_STEPSIZE=5.000000
_STEPMODE='S'
_START=0.000000
_THETA=57.5
_2THETA=115
_KHI=80
_PHI=0.000000
_X=0.000000
_Y=0.000000
_Z=0.000000
_DIVERGENCE=3.000000
_ANTISCATTER=3.000000
_DETECTOR=1
; S.C.
_HV=687
_GAIN=80
_LLD=0.690000
_ULD=1.866000
_DETECTORSLIT='unkn'
_AUX1=0.000000
_AUX2=0.000000
_AUX3=0.000000
_TIMESTARTED=17407
_TEMP_RATE=0.000000
_TEMP_DELAY=0.000000
_KV=35
_MA=40
_RANGE_WL=1.788970
_3DPLANE=0
_2THETACOUNTS
   0.0000      4902