Folder: uxd/dat

Note: README.md
uxd
===

Bruker's UXD format convert to epf with data analysis

Developed by Youngung Jeong
 - Materials Mechanics Lab, GIFT, POSTECH 2007-2014
 - Materials Science and Engineering Division, NIST, 2014-

File: as_pf_BH-steel.UXD
; C:\DIFFDAT1\GIFT\MML\youngung\11-1-BH\as_R.raw(Diffrac Plus V1.01 file) converted by XCH V1.0
_FILEVERSION=2
_SITE='Korea'
_USER='Admin'
_SAMPLE_CHANGER_CODE=0
_ATTACHMENTS_CODE=0
_GONIOMETER_RADIUS=300
_FIXED_DIVSLIT=1.000000
_FIXED_SAMPLESLIT=0.000000
_FIXED_DETSLIT=0.100000
_MONOCHROMATOR=0
; None
_THIN_FILM='N'
_BETA_FILTER='Y'
_FIXED_ANTISLIT=0.600000
_ANALYZER_CODE=0
; None
_DATEMEASURED='16-Apr-2011 18:18:38'
_WL_UNIT='A'
_WL1=1.788970
_WL2=1.792850
_WL3=1.620790
_WLRATIO=0.500000
_ANODE='Co'
; (Data for Range number 1)
_DRIVE='PHI'
_STEPTIME=2.000000
_STEPSIZE=5.000000
_STEPMODE='C'
_START=0.000000
_THETA=26.2245
_2THETA=52.449
_KHI=0.000000
_PHI=0.000000
_X=0.000000
_Y=0.000000
_Z=0.000000
_DIVERGENCE=3.000000
_ANTISCATTER=3.000000
_DETECTOR=1
; S.C.
_HV=687
_GAIN=80
_LLD=0.690000
_ULD=1.866000
_DETECTORSLIT='unkn'
_AUX1=0.000000
_AUX2=0.000000
_AUX3=0.000000
_TIMESTARTED=13
_TEMP_RATE=0.000000
_TEMP_DELAY=0.000000
_KV=35
_MA=40
_RANGE_WL=1.788970
_3DPLANE=0
_2THETACOUNTS
   0.0000      4824
   5.0000      5140
  10.0000      4948
  15.0000      4969
  20.0000      5076
  25.0000      4907
  30.0000      4846
  35.0000      4765
  40.0000      4631
  45.0000      4632
  50.0000      4520
  55.0000      4743
  60.0000      4783
  65.0000      4572
  70.0000      4629
  75.0000      4743
  80.0000      4766
  85.0000      4683
  90.0000      4571
  95.0000      4663
 100.0000      4644
 105.0000      4601
 110.0000      4658
 115.0000      4688
 120.0000      4742
 125.0000      4558
 130.0000      4660
 135.0000      4621
 140.0000      4494
 145.0000      4550
 150.0000      4639
 155.0000      4843
 160.0000      4752
 165.0000      4756
 170.0000      4823
 175.0000      4983
 180.0000      4915
 185.0000      5175
 190.0000      5103
 195.0000      4985
 200.0000      5048
 205.0000      4990
 210.0000      4776
 215.0000      4809
 220.0000      4647
 225.0000      4795
 230.0000      4606
 235.0000      4716
 240.0000      4681
 245.0000      4751
 250.0000      4800
 255.0000      5017
 260.0000      5142
 265.0000      5112
 270.0000      5127
 275.0000      5177
 280.0000      5104
 285.0000      5144
 290.0000      5103
 295.0000      5003
 300.0000      4880
 305.0000      4813
 310.0000      4858
 315.0000      4809
 320.0000      4825
 325.0000      4880
 330.0000      4891
 335.0000      4871
 340.0000      4824
 345.0000      4845
 350.0000      5008
 355.0000      4954
; (Data for Range number 2)
_DRIVE='PHI'
_STEPTIME=2.000000
_STEPSIZE=5.000000
_STEPMODE='C'
_START=0.000000
_THETA=26.2245
_2THETA=52.449
_KHI=5.000000
_PHI=0.000000
_X=0.000000
_Y=0.000000
_Z=0.000000
_DIVERGENCE=3.000000
_ANTISCATTER=3.000000
_DETECTOR=1
; S.C.
_HV=687
_GAIN=80
_LLD=0.690000
_ULD=1.866000
_DETECTORSLIT='unkn'
_AUX1=0.000000
_AUX2=0.000000
_AUX3=0.000000
_TIMESTARTED=218
_TEMP_RATE=0.000000
_TEMP_DELAY=0.000000
_KV=35
_MA=40
_RANGE_WL=1.788970
_3DPLANE=0
_2THETACOUNTS
   0.0000      5490
   5.0000      5228
  10.0000      5099
  15.0000      5311
  20.0000      5031
  25.0000      5159
  30.0000      4962
  35.0000      4524
  40.0000      4600
  45.0000      4831
  50.0000      5454
  55.0000      5277
  60.0000      4962
  65.0000      4589
  70.0000      4979
  75.0000      4814
  80.0000      4571
  85.0000      4584
  90.0000      4546
  95.0000      4835
 100.0000      4692
 105.0000      4413
 110.0000      4311
 115.0000      4599
 120.0000      4487
 125.0000      4403
 130.0000      4329
 135.0000      4155
 140.0000      4274
 145.0000      4398
 150.0000      4324
 155.0000      4341
 160.0000      4595
 165.0000      4411
 170.0000      4349
 175.0000      4938
 180.0000      4685
 185.0000      4510
 190.0000      4662
 195.0000      4767
 200.0000      4770
 205.0000      4725
 210.0000      4831
 215.0000      5126
 220.0000      5148
 225.0000      5116
 230.0000      5031
 235.0000      5305
 240.0000      5367
 245.0000      5450
 250.0000      5500
 255.0000      5427
 260.0000      5502
 265.0000      5226
 270.0000      5202
 275.0000      4891
 280.0000      4982
 285.0000      5255
 290.0000      5284
 295.0000      5694
 300.0000      5165
 305.0000      5414
 310.0000      5354
 315.0000      5064
 320.0000      5195
 325.0000      5339
 330.0000      5706
 335.0000      5800
 340.0000      5431
 345.0000      5711
 350.0000      5491
 355.0000      5266
; (Data for Range number 3)
_DRIVE='PHI'
_STEPTIME=2.000000
_STEPSIZE=5.000000
_STEPMODE='C'
_START=0.000000
_THETA=26.2245
_2THETA=52.449
_KHI=10
_PHI=0.000000
_X=0.000000
_Y=0.000000
_Z=0.000000
_DIVERGENCE=3.000000
_ANTISCATTER=3.000000
_DETECTOR=1
; S.C.
_HV=687
_GAIN=80
_LLD=0.690000
_ULD=1.866000
_DETECTORSLIT='unkn'
_AUX1=0.000000
_AUX2=0.000000
_AUX3=0.000000
_TIMESTARTED=423
_TEMP_RATE=0.000000
_TEMP_DELAY=0.000000
_KV=35
_MA=40
_RANGE_WL=1.788970
_3DPLANE=0
_2THETACOUNTS
   0.0000      5932
   5.0000      6294
  10.0000      6046
  15.0000      5915
  20.0000      5833
  25.0000      5540
  30.0000      5145
  35.0000      5102
  40.0000      5398
  45.0000      5517
  50.0000      5335
  55.0000      4877
  60.0000      5335
  65.0000      4916
  70.0000      4946
  75.0000      4909
  80.0000      4854
  85.0000      5114
  90.0000      5152
  95.0000      5250
 100.0000      4655
 105.0000      5046
 110.0000      4972
 115.0000      4888
 120.0000      4622
 125.0000      4679
 130.0000      4378
 135.0000      4395
 140.0000      4299
 145.0000      4278
 150.0000      4200
 155.0000      4757
 160.0000      4844
 165.0000      5020
 170.0000      4679
 175.0000      4340
 180.0000      4531
 185.0000      4669
 190.0000      4705
 195.0000      4970
 200.0000      5046
 205.0000      5511
 210.0000      4968
 215.0000      4921
 220.0000      5429
 225.0000      6084
 230.0000      6021
 235.0000      5263
 240.0000      5280
 245.0000      5443
 250.0000      5807
 255.0000      5875
 260.0000      6161
 265.0000      6255
 270.0000      6307
 275.0000      6426
 280.0000      6208
 285.0000      6321
 290.0000      6096
 295.0000      6195
 300.0000      6766
 305.0000      6283
 310.0000      6249
 315.0000      6176
 320.0000      6530
 325.0000      6488
 330.0000      6497
 335.0000      6675
 340.0000      6192
 345.0000      6569
 350.0000      5934
 355.0000      6083
; (Data for Range number 4)
_DRIVE='PHI'
_STEPTIME=2.000000
_STEPSIZE=5.000000
_STEPMODE='C'
_START=0.000000
_THETA=26.2245
_2THETA=52.449
_KHI=15
_PHI=0.000000
_X=0.000000
_Y=0.000000
_Z=0.000000
_DIVERGENCE=3.000000
_ANTISCATTER=3.000000
_DETECTOR=1
; S.C.
_HV=687
_GAIN=80
_LLD=0.690000
_ULD=1.866000
_DETECTORSLIT='unkn'
_AUX1=0.000000
_AUX2=0.000000
_AUX3=0.000000
_TIMESTARTED=628
_TEMP_RATE=0.000000
_TEMP_DELAY=0.000000
_KV=35
_MA=40
_RANGE_WL=1.788970
_3DPLANE=0
_2THETACOUNTS
   0.0000      7481
   5.0000      6882
  10.0000      6486
  15.0000      6321
  20.0000      6737
  25.0000      6014
  30.0000      5901
  35.0000      6125
  40.0000      5950
  45.0000      6015
  50.0000      5693
  55.0000      6051
  60.0000      6042
  65.0000      6214
  70.0000      6073
  75.0000      6302
  80.0000      6199
  85.0000      6402
  90.0000      5767
  95.0000      6019
 100.0000      6099
 105.0000      6012
 110.0000      5731
 115.0000      5603
 120.0000      5368
 125.0000      5150
 130.0000      4907
[...]
_AUX2=0.000000
_AUX3=0.000000
_TIMESTARTED=12884
_TEMP_RATE=0.000000
_TEMP_DELAY=0.000000
_KV=35
_MA=40
_RANGE_WL=1.788970
_3DPLANE=0
_2THETACOUNTS
   0.0000      6628
; (Data for Range number 147)
_DRIVE='PHI'
_STEPTIME=20
_STEPSIZE=5.000000
_STEPMODE='S'
_START=0.000000
_THETA=52.5
_2THETA=105
_KHI=50
_PHI=0.000000
_X=0.000000
_Y=0.000000
_Z=0.000000
_DIVERGENCE=3.000000
_ANTISCATTER=3.000000
_DETECTOR=1
; S.C.
_HV=687
_GAIN=80
_LLD=0.690000
_ULD=1.866000
_DETECTORSLIT='unkn'
_AUX1=0.000000
_AUX2=0.000000
_AUX3=0.000000
_TIMESTARTED=12910
_TEMP_RATE=0.000000
_TEMP_DELAY=0.000000
_KV=35
_MA=40
_RANGE_WL=1.788970
_3DPLANE=0
_2THETACOUNTS
   0.0000      6590
; (Data for Range number 148)
_DRIVE='PHI'
_STEPTIME=20
_STEPSIZE=5.000000
_STEPMODE='S'
_START=0.000000
_THETA=52.5
_2THETA=105
_KHI=55
_PHI=0.000000
_X=0.000000
_Y=0.000000
_Z=0.000000
_DIVERGENCE=3.000000
_ANTISCATTER=3.000000
_DETECTOR=1
; S.C.
_HV=687
_GAIN=80
_LLD=0.690000
_ULD=1.866000
_DETECTORSLIT='unkn'
_AUX1=0.000000
_AUX2=0.000000
_AUX3=0.000000
_TIMESTARTED=12933
_TEMP_RATE=0.000000
_TEMP_DELAY=0.000000
_KV=35
_MA=40
_RANGE_WL=1.788970
_3DPLANE=0
_2THETACOUNTS
   0.0000      6572
; (Data for Range number 149)
_DRIVE='PHI'
_STEPTIME=20
_STEPSIZE=5.000000
_STEPMODE='S'
_START=0.000000
_THETA=52.5
_2THETA=105
_KHI=60
_PHI=0.000000
_X=0.000000
_Y=0.000000
_Z=0.000000
_DIVERGENCE=3.000000
_ANTISCATTER=3.000000
_DETECTOR=1
; S.C.
_HV=687
_GAIN=80
_LLD=0.690000
_ULD=1.866000
_DETECTORSLIT='unkn'
_AUX1=0.000000
_AUX2=0.000000
_AUX3=0.000000
_TIMESTARTED=12959
_TEMP_RATE=0.000000
_TEMP_DELAY=0.000000
_KV=35
_MA=40
_RANGE_WL=1.788970
_3DPLANE=0
_2THETACOUNTS
   0.0000      6869
; (Data for Range number 150)
_DRIVE='PHI'
_STEPTIME=20
_STEPSIZE=5.000000
_STEPMODE='S'
_START=0.000000
_THETA=52.5
_2THETA=105
_KHI=65
_PHI=0.000000
_X=0.000000
_Y=0.000000
_Z=0.000000
_DIVERGENCE=3.000000
_ANTISCATTER=3.000000
_DETECTOR=1
; S.C.
_HV=687
_GAIN=80
_LLD=0.690000
_ULD=1.866000
_DETECTORSLIT='unkn'
_AUX1=0.000000
_AUX2=0.000000
_AUX3=0.000000
_TIMESTARTED=12983
_TEMP_RATE=0.000000
_TEMP_DELAY=0.000000
_KV=35
_MA=40
_RANGE_WL=1.788970
_3DPLANE=0
_2THETACOUNTS
   0.0000      6809
; (Data for Range number 151)
_DRIVE='PHI'
_STEPTIME=20
_STEPSIZE=5.000000
_STEPMODE='S'
_START=0.000000
_THETA=52.5
_2THETA=105
_KHI=70
_PHI=0.000000
_X=0.000000
_Y=0.000000
_Z=0.000000
_DIVERGENCE=3.000000
_ANTISCATTER=3.000000
_DETECTOR=1
; S.C.
_HV=687
_GAIN=80
_LLD=0.690000
_ULD=1.866000
_DETECTORSLIT='unkn'
_AUX1=0.000000
_AUX2=0.000000
_AUX3=0.000000
_TIMESTARTED=13008
_TEMP_RATE=0.000000
_TEMP_DELAY=0.000000
_KV=35
_MA=40
_RANGE_WL=1.788970
_3DPLANE=0
_2THETACOUNTS
   0.0000      6787
; (Data for Range number 152)
_DRIVE='PHI'
_STEPTIME=20
_STEPSIZE=5.000000
_STEPMODE='S'
_START=0.000000
_THETA=52.5
_2THETA=105
_KHI=75
_PHI=0.000000
_X=0.000000
_Y=0.000000
_Z=0.000000
_DIVERGENCE=3.000000
_ANTISCATTER=3.000000
_DETECTOR=1
; S.C.
_HV=687
_GAIN=80
_LLD=0.690000
_ULD=1.866000
_DETECTORSLIT='unkn'
_AUX1=0.000000
_AUX2=0.000000
_AUX3=0.000000
_TIMESTARTED=13032
_TEMP_RATE=0.000000
_TEMP_DELAY=0.000000
_KV=35
_MA=40
_RANGE_WL=1.788970
_3DPLANE=0
_2THETACOUNTS
   0.0000      6640
; (Data for Range number 153)
_DRIVE='PHI'
_STEPTIME=20
_STEPSIZE=5.000000
_STEPMODE='S'
_START=0.000000
_THETA=52.5
_2THETA=105
_KHI=80
_PHI=0.000000
_X=0.000000
_Y=0.000000
_Z=0.000000
_DIVERGENCE=3.000000
_ANTISCATTER=3.000000
_DETECTOR=1
; S.C.
_HV=687
_GAIN=80
_LLD=0.690000
_ULD=1.866000
_DETECTORSLIT='unkn'
_AUX1=0.000000
_AUX2=0.000000
_AUX3=0.000000
_TIMESTARTED=13056
_TEMP_RATE=0.000000
_TEMP_DELAY=0.000000
_KV=35
_MA=40
_RANGE_WL=1.788970
_3DPLANE=0
_2THETACOUNTS
   0.0000      6012

File: as_R.UXD
; C:\DIFFDAT1\GIFT\MML\HwiGeon\as_R.raw(Diffrac Plus V1.01 file) converted by XCH V1.0
_FILEVERSION=2
_SITE='Korea'
_USER='Admin'
_SAMPLE_CHANGER_CODE=0
_ATTACHMENTS_CODE=0
_GONIOMETER_RADIUS=300
_FIXED_DIVSLIT=1.000000
_FIXED_SAMPLESLIT=0.000000
_FIXED_DETSLIT=0.100000
_MONOCHROMATOR=0
; None
_THIN_FILM='N'
_BETA_FILTER='Y'
_FIXED_ANTISLIT=0.600000
_ANALYZER_CODE=0
; None
_DATEMEASURED='12-Mar-2012 20:08:28'
_WL_UNIT='A'
_WL1=1.788970
_WL2=1.792850
_WL3=1.620790
_WLRATIO=0.500000
_ANODE='Co'
; (Data for Range number 1)
_DRIVE='PHI'
_STEPTIME=2.000000
_STEPSIZE=5.000000
_STEPMODE='C'
_START=0.000000
_THETA=26.1065
_2THETA=52.213
_KHI=0.000000
_PHI=0.000000
_X=0.000000
_Y=0.000000
_Z=0.000000
_DIVERGENCE=3.000000
_ANTISCATTER=3.000000
_DETECTOR=1
; S.C.
_HV=687
_GAIN=80
_LLD=0.690000
_ULD=1.866000
_DETECTORSLIT='unkn'
_AUX1=0.000000
_AUX2=0.000000
_AUX3=0.000000
_TIMESTARTED=15
_TEMP_RATE=0.000000
_TEMP_DELAY=0.000000
_KV=35
_MA=40
_RANGE_WL=1.788970
_3DPLANE=0
_2THETACOUNTS
   0.0000       313
   5.0000       359
  10.0000       332
  15.0000       375
  20.0000       313
  25.0000       390
  30.0000       412
  35.0000       474
  40.0000       480
  45.0000       459
  50.0000       473
  55.0000       493
  60.0000       481
  65.0000       471
  70.0000       436
  75.0000       435
  80.0000       430
  85.0000       409
  90.0000       405
  95.0000       422
 100.0000       394
 105.0000       377
 110.0000       450
 115.0000       465
 120.0000       476
 125.0000       477
 130.0000       507
 135.0000       488
 140.0000       459
 145.0000       478
 150.0000       568
 155.0000       594
 160.0000       581
 165.0000       523
 170.0000       550
 175.0000       530
 180.0000       566
 185.0000       481
 190.0000       491
 195.0000       455
 200.0000       436
 205.0000       471
 210.0000       414
 215.0000       414
 220.0000       379
 225.0000       383
 230.0000       378
 235.0000       395
 240.0000       377
 245.0000       358
 250.0000       339
 255.0000       367
 260.0000       330
 265.0000       353
 270.0000       314
 275.0000       344
 280.0000       362
 285.0000       318
 290.0000       367
 295.0000       386
 300.0000       370
 305.0000       335
 310.0000       337
 315.0000       351
 320.0000       443
 325.0000       434
 330.0000       402
 335.0000       380
 340.0000       365
 345.0000       346
 350.0000       335
 355.0000       315
; (Data for Range number 2)
_DRIVE='PHI'
_STEPTIME=2.000000
_STEPSIZE=5.000000
_STEPMODE='C'
_START=0.000000
_THETA=26.1065
_2THETA=52.213
_KHI=5.000000
_PHI=0.000000
_X=0.000000
_Y=0.000000
_Z=0.000000
_DIVERGENCE=3.000000
_ANTISCATTER=3.000000
_DETECTOR=1
; S.C.
_HV=687
_GAIN=80
_LLD=0.690000
_ULD=1.866000
_DETECTORSLIT='unkn'
_AUX1=0.000000
_AUX2=0.000000
_AUX3=0.000000
_TIMESTARTED=220
_TEMP_RATE=0.000000
_TEMP_DELAY=0.000000
_KV=35
_MA=40
_RANGE_WL=1.788970
_3DPLANE=0
_2THETACOUNTS
   0.0000       469
   5.0000       499
  10.0000       576
  15.0000       617
  20.0000       533
  25.0000       474
  30.0000       461
  35.0000       430
  40.0000       456
  45.0000       454
  50.0000       423
  55.0000       570
  60.0000       432
  65.0000       501
  70.0000       601
  75.0000       501
  80.0000       372
  85.0000       368
  90.0000       404
  95.0000       471
 100.0000       518
 105.0000       701
 110.0000       501
 115.0000       400
 120.0000       401
 125.0000       420
 130.0000       388
 135.0000       405
 140.0000       456
 145.0000       544
 150.0000       420
 155.0000       447
 160.0000       429
 165.0000       497
 170.0000       439
 175.0000       531
 180.0000       472
 185.0000       461
 190.0000       404
 195.0000       414
 200.0000       390
 205.0000       433
 210.0000       444
 215.0000       489
 220.0000       421
 225.0000       332
 230.0000       334
 235.0000       410
 240.0000       473
 245.0000       459
 250.0000       464
 255.0000       470
 260.0000       491
 265.0000       450
 270.0000       452
 275.0000       471
 280.0000       466
 285.0000       491
 290.0000       411
 295.0000       432
 300.0000       480
 305.0000       437
 310.0000       486
 315.0000       493
 320.0000       434
 325.0000       355
 330.0000       376
 335.0000       370
 340.0000       469
 345.0000       405
 350.0000       388
 355.0000       378
; (Data for Range number 3)
_DRIVE='PHI'
_STEPTIME=2.000000
_STEPSIZE=5.000000
_STEPMODE='C'
_START=0.000000
_THETA=26.1065
_2THETA=52.213
_KHI=10
_PHI=0.000000
_X=0.000000
_Y=0.000000
_Z=0.000000
_DIVERGENCE=3.000000
_ANTISCATTER=3.000000
_DETECTOR=1
; S.C.
_HV=687
_GAIN=80
_LLD=0.690000
_ULD=1.866000
_DETECTORSLIT='unkn'
_AUX1=0.000000
_AUX2=0.000000
_AUX3=0.000000
_TIMESTARTED=425
_TEMP_RATE=0.000000
_TEMP_DELAY=0.000000
_KV=35
_MA=40
_RANGE_WL=1.788970
_3DPLANE=0
_2THETACOUNTS
   0.0000       430
   5.0000       543
  10.0000       404
  15.0000       411
  20.0000       396
  25.0000       562
  30.0000       676
  35.0000       599
  40.0000       587
  45.0000       433
  50.0000       482
  55.0000       430
  60.0000       505
  65.0000       425
  70.0000       511
  75.0000       573
  80.0000       469
  85.0000       481
  90.0000       490
  95.0000       733
 100.0000       588
 105.0000       642
 110.0000       546
 115.0000       639
 120.0000       497
 125.0000       426
 130.0000       436
 135.0000       500
 140.0000       497
 145.0000       547
 150.0000       471
 155.0000       557
 160.0000       521
 165.0000       468
 170.0000       495
 175.0000       524
 180.0000       506
 185.0000       539
 190.0000       538
 195.0000       458
 200.0000       431
 205.0000       424
 210.0000       434
 215.0000       442
 220.0000       515
 225.0000       637
 230.0000       411
 235.0000       357
 240.0000       461
 245.0000       555
 250.0000       584
 255.0000       680
 260.0000       569
 265.0000       553
 270.0000       664
 275.0000       877
 280.0000       512
 285.0000       607
 290.0000       484
 295.0000       522
 300.0000       449
 305.0000       448
 310.0000       459
 315.0000       514
 320.0000       504
 325.0000       406
 330.0000       513
 335.0000       420
 340.0000       563
 345.0000       445
 350.0000       499
 355.0000       493
; (Data for Range number 4)
_DRIVE='PHI'
_STEPTIME=2.000000
_STEPSIZE=5.000000
_STEPMODE='C'
_START=0.000000
_THETA=26.1065
_2THETA=52.213
_KHI=15
_PHI=0.000000
_X=0.000000
_Y=0.000000
_Z=0.000000
_DIVERGENCE=3.000000
_ANTISCATTER=3.000000
_DETECTOR=1
; S.C.
_HV=687
_GAIN=80
_LLD=0.690000
_ULD=1.866000
_DETECTORSLIT='unkn'
_AUX1=0.000000
_AUX2=0.000000
_AUX3=0.000000
_TIMESTARTED=629
_TEMP_RATE=0.000000
_TEMP_DELAY=0.000000
_KV=35
_MA=40
_RANGE_WL=1.788970
_3DPLANE=0
_2THETACOUNTS
   0.0000       492
   5.0000       690
  10.0000       663
  15.0000       633
  20.0000       662
  25.0000      1042
  30.0000       560
  35.0000       495
  40.0000       542
  45.0000       587
  50.0000       552
  55.0000       570
  60.0000       679
  65.0000       673
  70.0000       492
  75.0000       479
  80.0000       744
  85.0000       540
  90.0000       661
  95.0000       548
 100.0000       694
 105.0000       581
 110.0000       633
 115.0000       554
 120.0000       417
 125.0000       541
 130.0000       720
 135.0000       814
[...]
_AUX2=0.000000
_AUX3=0.000000
_TIMESTARTED=12884
_TEMP_RATE=0.000000
_TEMP_DELAY=0.000000
_KV=35
_MA=40
_RANGE_WL=1.788970
_3DPLANE=0
_2THETACOUNTS
   0.0000      1285
; (Data for Range number 147)
_DRIVE='PHI'
_STEPTIME=20
_STEPSIZE=5.000000
_STEPMODE='S'
_START=0.000000
_THETA=52.5
_2THETA=105
_KHI=50
_PHI=0.000000
_X=0.000000
_Y=0.000000
_Z=0.000000
_DIVERGENCE=3.000000
_ANTISCATTER=3.000000
_DETECTOR=1
; S.C.
_HV=687
_GAIN=80
_LLD=0.690000
_ULD=1.866000
_DETECTORSLIT='unkn'
_AUX1=0.000000
_AUX2=0.000000
_AUX3=0.000000
_TIMESTARTED=12909
_TEMP_RATE=0.000000
_TEMP_DELAY=0.000000
_KV=35
_MA=40
_RANGE_WL=1.788970
_3DPLANE=0
_2THETACOUNTS
   0.0000      1321
; (Data for Range number 148)
_DRIVE='PHI'
_STEPTIME=20
_STEPSIZE=5.000000
_STEPMODE='S'
_START=0.000000
_THETA=52.5
_2THETA=105
_KHI=55
_PHI=0.000000
_X=0.000000
_Y=0.000000
_Z=0.000000
_DIVERGENCE=3.000000
_ANTISCATTER=3.000000
_DETECTOR=1
; S.C.
_HV=687
_GAIN=80
_LLD=0.690000
_ULD=1.866000
_DETECTORSLIT='unkn'
_AUX1=0.000000
_AUX2=0.000000
_AUX3=0.000000
_TIMESTARTED=12934
_TEMP_RATE=0.000000
_TEMP_DELAY=0.000000
_KV=35
_MA=40
_RANGE_WL=1.788970
_3DPLANE=0
_2THETACOUNTS
   0.0000      1329
; (Data for Range number 149)
_DRIVE='PHI'
_STEPTIME=20
_STEPSIZE=5.000000
_STEPMODE='S'
_START=0.000000
_THETA=52.5
_2THETA=105
_KHI=60
_PHI=0.000000
_X=0.000000
_Y=0.000000
_Z=0.000000
_DIVERGENCE=3.000000
_ANTISCATTER=3.000000
_DETECTOR=1
; S.C.
_HV=687
_GAIN=80
_LLD=0.690000
_ULD=1.866000
_DETECTORSLIT='unkn'
_AUX1=0.000000
_AUX2=0.000000
_AUX3=0.000000
_TIMESTARTED=12958
_TEMP_RATE=0.000000
_TEMP_DELAY=0.000000
_KV=35
_MA=40
_RANGE_WL=1.788970
_3DPLANE=0
_2THETACOUNTS
   0.0000      1223
; (Data for Range number 150)
_DRIVE='PHI'
_STEPTIME=20
_STEPSIZE=5.000000
_STEPMODE='S'
_START=0.000000
_THETA=52.5
_2THETA=105
_KHI=65
_PHI=0.000000
_X=0.000000
_Y=0.000000
_Z=0.000000
_DIVERGENCE=3.000000
_ANTISCATTER=3.000000
_DETECTOR=1
; S.C.
_HV=687
_GAIN=80
_LLD=0.690000
_ULD=1.866000
_DETECTORSLIT='unkn'
_AUX1=0.000000
_AUX2=0.000000
_AUX3=0.000000
_TIMESTARTED=12983
_TEMP_RATE=0.000000
_TEMP_DELAY=0.000000
_KV=35
_MA=40
_RANGE_WL=1.788970
_3DPLANE=0
_2THETACOUNTS
   0.0000      1219
; (Data for Range number 151)
_DRIVE='PHI'
_STEPTIME=20
_STEPSIZE=5.000000
_STEPMODE='S'
_START=0.000000
_THETA=52.5
_2THETA=105
_KHI=70
_PHI=0.000000
_X=0.000000
_Y=0.000000
_Z=0.000000
_DIVERGENCE=3.000000
_ANTISCATTER=3.000000
_DETECTOR=1
; S.C.
_HV=687
_GAIN=80
_LLD=0.690000
_ULD=1.866000
_DETECTORSLIT='unkn'
_AUX1=0.000000
_AUX2=0.000000
_AUX3=0.000000
_TIMESTARTED=13008
_TEMP_RATE=0.000000
_TEMP_DELAY=0.000000
_KV=35
_MA=40
_RANGE_WL=1.788970
_3DPLANE=0
_2THETACOUNTS
   0.0000      1130
; (Data for Range number 152)
_DRIVE='PHI'
_STEPTIME=20
_STEPSIZE=5.000000
_STEPMODE='S'
_START=0.000000
_THETA=52.5
_2THETA=105
_KHI=75
_PHI=0.000000
_X=0.000000
_Y=0.000000
_Z=0.000000
_DIVERGENCE=3.000000
_ANTISCATTER=3.000000
_DETECTOR=1
; S.C.
_HV=687
_GAIN=80
_LLD=0.690000
_ULD=1.866000
_DETECTORSLIT='unkn'
_AUX1=0.000000
_AUX2=0.000000
_AUX3=0.000000
_TIMESTARTED=13032
_TEMP_RATE=0.000000
_TEMP_DELAY=0.000000
_KV=35
_MA=40
_RANGE_WL=1.788970
_3DPLANE=0
_2THETACOUNTS
   0.0000       994
; (Data for Range number 153)
_DRIVE='PHI'
_STEPTIME=20
_STEPSIZE=5.000000
_STEPMODE='S'
_START=0.000000
_THETA=52.5
_2THETA=105
_KHI=80
_PHI=0.000000
_X=0.000000
_Y=0.000000
_Z=0.000000
_DIVERGENCE=3.000000
_ANTISCATTER=3.000000
_DETECTOR=1
; S.C.
_HV=687
_GAIN=80
_LLD=0.690000
_ULD=1.866000
_DETECTORSLIT='unkn'
_AUX1=0.000000
_AUX2=0.000000
_AUX3=0.000000
_TIMESTARTED=13057
_TEMP_RATE=0.000000
_TEMP_DELAY=0.000000
_KV=35
_MA=40
_RANGE_WL=1.788970
_3DPLANE=0
_2THETACOUNTS
   0.0000       755