Folder: uxd/dat/uxd

Note: README.md
uxd
===

Bruker's UXD format convert to epf with data analysis

Developed by Youngung Jeong
 - Materials Mechanics Lab, GIFT, POSTECH 2007-2014
 - Materials Science and Engineering Division, NIST, 2014-

File: fss-stand_dfc_new.UXD
; C:\DIFFDAT1\GIFT\MML\youngung\standard_Ferr_ss\fss___alignedagain_R.raw(Diffrac Plus V1.01 file) converted by XCH V1.0
_FILEVERSION=2
_SITE='Korea'
_USER='Admin'
_SAMPLE_CHANGER_CODE=0
_ATTACHMENTS_CODE=0
_GONIOMETER_RADIUS=300
_FIXED_DIVSLIT=1.000000
_FIXED_SAMPLESLIT=0.000000
_FIXED_DETSLIT=0.100000
_MONOCHROMATOR=0
; None
_THIN_FILM='N'
_BETA_FILTER='Y'
_FIXED_ANTISLIT=0.600000
_ANALYZER_CODE=0
; None
_DATEMEASURED='20-Jan-2011 06:03:08'
_WL_UNIT='A'
_WL1=1.788970
_WL2=1.792850
_WL3=1.620790
_WLRATIO=0.500000
_ANODE='Co'
; (Data for Range number 1)
_DRIVE='PHI'
_STEPTIME=2.000000
_STEPSIZE=5.000000
_STEPMODE='C'
_START=0.000000
_THETA=26.1155
_2THETA=52.231
_KHI=0.000000
_PHI=0.000000
_X=50
_Y=-25
_Z=0.000000
_DIVERGENCE=3.000000
_ANTISCATTER=3.000000
_DETECTOR=1
; S.C.
_HV=687
_GAIN=80
_LLD=0.690000
_ULD=1.866000
_DETECTORSLIT='unkn'
_AUX1=0.000000
_AUX2=0.000000
_AUX3=0.000000
_TIMESTARTED=25
_TEMP_RATE=0.000000
_TEMP_DELAY=0.000000
_KV=35
_MA=40
_RANGE_WL=1.788970
_3DPLANE=0
_2THETACOUNTS
   0.0000      2644
   5.0000      2631
  10.0000      2726
  15.0000      2740
  20.0000      2689
  25.0000      2752
  30.0000      2806
  35.0000      2791
  40.0000      2789
  45.0000      3056
  50.0000      3089
  55.0000      2734
  60.0000      2596
  65.0000      2569
  70.0000      2569
  75.0000      2708
  80.0000      2611
  85.0000      2529
  90.0000      2429
  95.0000      2298
 100.0000      2339
 105.0000      2463
 110.0000      2512
 115.0000      2349
 120.0000      2301
 125.0000      2182
 130.0000      2100
 135.0000      2204
 140.0000      2352
 145.0000      2429
 150.0000      2474
 155.0000      2523
 160.0000      2581
 165.0000      2569
 170.0000      2575
 175.0000      2502
 180.0000      2729
 185.0000      2716
 190.0000      2733
 195.0000      2886
 200.0000      2911
 205.0000      3108
 210.0000      3224
 215.0000      3182
 220.0000      2811
 225.0000      2593
 230.0000      2754
 235.0000      2453
 240.0000      2451
 245.0000      2473
 250.0000      2474
 255.0000      2391
 260.0000      2673
 265.0000      2630
 270.0000      2667
 275.0000      2760
 280.0000      3011
 285.0000      3003
 290.0000      3005
 295.0000      2752
 300.0000      2591
 305.0000      2346
 310.0000      2269
 315.0000      2354
 320.0000      2576
 325.0000      2754
 330.0000      2667
 335.0000      2620
 340.0000      2701
 345.0000      2846
 350.0000      2781
 355.0000      2582
; (Data for Range number 2)
_DRIVE='PHI'
_STEPTIME=2.000000
_STEPSIZE=5.000000
_STEPMODE='C'
_START=0.000000
_THETA=26.1155
_2THETA=52.231
_KHI=5.000000
_PHI=0.000000
_X=50
_Y=-25
_Z=0.000000
_DIVERGENCE=3.000000
_ANTISCATTER=3.000000
_DETECTOR=1
; S.C.
_HV=687
_GAIN=80
_LLD=0.690000
_ULD=1.866000
_DETECTORSLIT='unkn'
_AUX1=0.000000
_AUX2=0.000000
_AUX3=0.000000
_TIMESTARTED=230
_TEMP_RATE=0.000000
_TEMP_DELAY=0.000000
_KV=35
_MA=40
_RANGE_WL=1.788970
_3DPLANE=0
_2THETACOUNTS
   0.0000      2631
   5.0000      2360
  10.0000      2790
  15.0000      3055
  20.0000      2846
  25.0000      2666
  30.0000      2606
  35.0000      2542
  40.0000      2582
  45.0000      2479
  50.0000      2162
  55.0000      2637
  60.0000      2766
  65.0000      2900
  70.0000      2660
  75.0000      2834
  80.0000      2799
  85.0000      2617
  90.0000      2377
  95.0000      2804
 100.0000      2969
 105.0000      2916
 110.0000      2843
 115.0000      3008
 120.0000      2473
 125.0000      2326
 130.0000      2448
 135.0000      2225
 140.0000      2284
 145.0000      2498
 150.0000      2518
 155.0000      2394
 160.0000      2492
 165.0000      2696
 170.0000      2802
 175.0000      2750
 180.0000      2416
 185.0000      2934
 190.0000      3025
 195.0000      2735
 200.0000      2668
 205.0000      2701
 210.0000      2930
 215.0000      2706
 220.0000      2593
 225.0000      2702
 230.0000      2830
 235.0000      2644
 240.0000      2503
 245.0000      2503
 250.0000      2302
 255.0000      3026
 260.0000      3165
 265.0000      3034
 270.0000      2535
 275.0000      2470
 280.0000      2943
 285.0000      3179
 290.0000      3176
 295.0000      3173
 300.0000      3025
 305.0000      2821
 310.0000      3075
 315.0000      2497
 320.0000      2559
 325.0000      3022
 330.0000      2839
 335.0000      3010
 340.0000      2798
 345.0000      2484
 350.0000      2469
 355.0000      2927
; (Data for Range number 3)
_DRIVE='PHI'
_STEPTIME=2.000000
_STEPSIZE=5.000000
_STEPMODE='C'
_START=0.000000
_THETA=26.1155
_2THETA=52.231
_KHI=10
_PHI=0.000000
_X=50
_Y=-25
_Z=0.000000
_DIVERGENCE=3.000000
_ANTISCATTER=3.000000
_DETECTOR=1
; S.C.
_HV=687
_GAIN=80
_LLD=0.690000
_ULD=1.866000
_DETECTORSLIT='unkn'
_AUX1=0.000000
_AUX2=0.000000
_AUX3=0.000000
_TIMESTARTED=435
_TEMP_RATE=0.000000
_TEMP_DELAY=0.000000
_KV=35
_MA=40
_RANGE_WL=1.788970
_3DPLANE=0
_2THETACOUNTS
   0.0000      2424
   5.0000      2295
  10.0000      2283
  15.0000      2832
  20.0000      2755
  25.0000      2563
  30.0000      2628
  35.0000      2682
  40.0000      2456
  45.0000      2237
  50.0000      2375
  55.0000      2733
  60.0000      2921
  65.0000      3066
  70.0000      2819
  75.0000      2452
  80.0000      2783
  85.0000      2517
  90.0000      2595
  95.0000      2476
 100.0000      2531
 105.0000      2589
 110.0000      2573
 115.0000      3144
 120.0000      2704
 125.0000      2301
 130.0000      2560
 135.0000      2722
 140.0000      2606
 145.0000      2744
 150.0000      2840
 155.0000      2610
 160.0000      2746
 165.0000      2387
 170.0000      2457
 175.0000      2526
 180.0000      2707
 185.0000      2592
 190.0000      2581
 195.0000      2981
 200.0000      2863
 205.0000      2305
 210.0000      2290
 215.0000      2191
 220.0000      2639
 225.0000      2910
 230.0000      3466
 235.0000      3141
 240.0000      2721
 245.0000      2654
 250.0000      2571
 255.0000      2838
 260.0000      2871
 265.0000      2816
 270.0000      2957
 275.0000      2570
 280.0000      2784
 285.0000      2771
 290.0000      2905
 295.0000      2542
 300.0000      2743
 305.0000      2419
 310.0000      2485
 315.0000      3755
 320.0000      2787
 325.0000      2738
 330.0000      2769
 335.0000      2649
 340.0000      2525
 345.0000      2568
 350.0000      2427
 355.0000      2588
; (Data for Range number 4)
_DRIVE='PHI'
_STEPTIME=2.000000
_STEPSIZE=5.000000
_STEPMODE='C'
_START=0.000000
_THETA=26.1155
_2THETA=52.231
_KHI=15
_PHI=0.000000
_X=50
_Y=-25
_Z=0.000000
_DIVERGENCE=3.000000
_ANTISCATTER=3.000000
_DETECTOR=1
; S.C.
_HV=687
_GAIN=80
_LLD=0.690000
_ULD=1.866000
_DETECTORSLIT='unkn'
_AUX1=0.000000
_AUX2=0.000000
_AUX3=0.000000
_TIMESTARTED=640
_TEMP_RATE=0.000000
_TEMP_DELAY=0.000000
_KV=35
_MA=40
_RANGE_WL=1.788970
_3DPLANE=0
_2THETACOUNTS
   0.0000      2609
   5.0000      2731
  10.0000      2735
  15.0000      2760
  20.0000      2828
  25.0000      2851
  30.0000      2782
  35.0000      3079
  40.0000      2596
  45.0000      2300
  50.0000      2783
  55.0000      2741
  60.0000      2501
  65.0000      2744
  70.0000      2961
  75.0000      2743
  80.0000      2344
  85.0000      2511
  90.0000      2491
  95.0000      2506
 100.0000      2376
 105.0000      2619
 110.0000      2757
 115.0000      2966
 120.0000      2754
 125.0000      2475
 130.0000      2632
 135.0000      2799
[...]
_DETECTOR=1
; S.C.
_HV=687
_GAIN=80
_LLD=0.690000
_ULD=1.866000
_DETECTORSLIT='unkn'
_AUX1=0.000000
_AUX2=0.000000
_AUX3=0.000000
_TIMESTARTED=12892
_TEMP_RATE=0.000000
_TEMP_DELAY=0.000000
_KV=35
_MA=40
_RANGE_WL=1.788970
_3DPLANE=0
_2THETACOUNTS
   0.0000      5114
; (Data for Range number 147)
_DRIVE='PHI'
_STEPTIME=20
_STEPSIZE=5.000000
_STEPMODE='S'
_START=0.000000
_THETA=52
_2THETA=104
_KHI=50
_PHI=0.000000
_X=50
_Y=-25
_Z=0.000000
_DIVERGENCE=3.000000
_ANTISCATTER=3.000000
_DETECTOR=1
; S.C.
_HV=687
_GAIN=80
_LLD=0.690000
_ULD=1.866000
_DETECTORSLIT='unkn'
_AUX1=0.000000
_AUX2=0.000000
_AUX3=0.000000
_TIMESTARTED=12917
_TEMP_RATE=0.000000
_TEMP_DELAY=0.000000
_KV=35
_MA=40
_RANGE_WL=1.788970
_3DPLANE=0
_2THETACOUNTS
   0.0000      5092
; (Data for Range number 148)
_DRIVE='PHI'
_STEPTIME=20
_STEPSIZE=5.000000
_STEPMODE='S'
_START=0.000000
_THETA=52
_2THETA=104
_KHI=55
_PHI=0.000000
_X=50
_Y=-25
_Z=0.000000
_DIVERGENCE=3.000000
_ANTISCATTER=3.000000
_DETECTOR=1
; S.C.
_HV=687
_GAIN=80
_LLD=0.690000
_ULD=1.866000
_DETECTORSLIT='unkn'
_AUX1=0.000000
_AUX2=0.000000
_AUX3=0.000000
_TIMESTARTED=12942
_TEMP_RATE=0.000000
_TEMP_DELAY=0.000000
_KV=35
_MA=40
_RANGE_WL=1.788970
_3DPLANE=0
_2THETACOUNTS
   0.0000      5234
; (Data for Range number 149)
_DRIVE='PHI'
_STEPTIME=20
_STEPSIZE=5.000000
_STEPMODE='S'
_START=0.000000
_THETA=52
_2THETA=104
_KHI=60
_PHI=0.000000
_X=50
_Y=-25
_Z=0.000000
_DIVERGENCE=3.000000
_ANTISCATTER=3.000000
_DETECTOR=1
; S.C.
_HV=687
_GAIN=80
_LLD=0.690000
_ULD=1.866000
_DETECTORSLIT='unkn'
_AUX1=0.000000
_AUX2=0.000000
_AUX3=0.000000
_TIMESTARTED=12967
_TEMP_RATE=0.000000
_TEMP_DELAY=0.000000
_KV=35
_MA=40
_RANGE_WL=1.788970
_3DPLANE=0
_2THETACOUNTS
   0.0000      5113
; (Data for Range number 150)
_DRIVE='PHI'
_STEPTIME=20
_STEPSIZE=5.000000
_STEPMODE='S'
_START=0.000000
_THETA=52
_2THETA=104
_KHI=65
_PHI=0.000000
_X=50
_Y=-25
_Z=0.000000
_DIVERGENCE=3.000000
_ANTISCATTER=3.000000
_DETECTOR=1
; S.C.
_HV=687
_GAIN=80
_LLD=0.690000
_ULD=1.866000
_DETECTORSLIT='unkn'
_AUX1=0.000000
_AUX2=0.000000
_AUX3=0.000000
_TIMESTARTED=12992
_TEMP_RATE=0.000000
_TEMP_DELAY=0.000000
_KV=35
_MA=40
_RANGE_WL=1.788970
_3DPLANE=0
_2THETACOUNTS
   0.0000      4963
; (Data for Range number 151)
_DRIVE='PHI'
_STEPTIME=20
_STEPSIZE=5.000000
_STEPMODE='S'
_START=0.000000
_THETA=52
_2THETA=104
_KHI=70
_PHI=0.000000
_X=50
_Y=-25
_Z=0.000000
_DIVERGENCE=3.000000
_ANTISCATTER=3.000000
_DETECTOR=1
; S.C.
_HV=687
_GAIN=80
_LLD=0.690000
_ULD=1.866000
_DETECTORSLIT='unkn'
_AUX1=0.000000
_AUX2=0.000000
_AUX3=0.000000
_TIMESTARTED=13016
_TEMP_RATE=0.000000
_TEMP_DELAY=0.000000
_KV=35
_MA=40
_RANGE_WL=1.788970
_3DPLANE=0
_2THETACOUNTS
   0.0000      4987
; (Data for Range number 152)
_DRIVE='PHI'
_STEPTIME=20
_STEPSIZE=5.000000
_STEPMODE='S'
_START=0.000000
_THETA=52
_2THETA=104
_KHI=75
_PHI=0.000000
_X=50
_Y=-25
_Z=0.000000
_DIVERGENCE=3.000000
_ANTISCATTER=3.000000
_DETECTOR=1
; S.C.
_HV=687
_GAIN=80
_LLD=0.690000
_ULD=1.866000
_DETECTORSLIT='unkn'
_AUX1=0.000000
_AUX2=0.000000
_AUX3=0.000000
_TIMESTARTED=13040
_TEMP_RATE=0.000000
_TEMP_DELAY=0.000000
_KV=35
_MA=40
_RANGE_WL=1.788970
_3DPLANE=0
_2THETACOUNTS
   0.0000      5010
; (Data for Range number 153)
_DRIVE='PHI'
_STEPTIME=20
_STEPSIZE=5.000000
_STEPMODE='S'
_START=0.000000
_THETA=52
_2THETA=104
_KHI=80
_PHI=0.000000
_X=50
_Y=-25
_Z=0.000000
_DIVERGENCE=3.000000
_ANTISCATTER=3.000000
_DETECTOR=1
; S.C.
_HV=687
_GAIN=80
_LLD=0.690000
_ULD=1.866000
_DETECTORSLIT='unkn'
_AUX1=0.000000
_AUX2=0.000000
_AUX3=0.000000
_TIMESTARTED=13065
_TEMP_RATE=0.000000
_TEMP_DELAY=0.000000
_KV=35
_MA=40
_RANGE_WL=1.788970
_3DPLANE=0
_2THETACOUNTS
   0.0000      4608

File: fss.UXD
; C:\DIFFDAT1\GIFT\MML\youngung\10-1-fss(from_Hyukjong)\as_R.raw(Diffrac Plus V1.01 file) converted by XCH V1.0
_FILEVERSION=2
_SITE='Korea'
_USER='Admin'
_SAMPLE_CHANGER_CODE=0
_ATTACHMENTS_CODE=0
_GONIOMETER_RADIUS=300
_FIXED_DIVSLIT=1.000000
_FIXED_SAMPLESLIT=0.000000
_FIXED_DETSLIT=0.100000
_MONOCHROMATOR=0
; None
_THIN_FILM='N'
_BETA_FILTER='Y'
_FIXED_ANTISLIT=0.600000
_ANALYZER_CODE=0
; None
_DATEMEASURED='29-Mar-2011 13:41:00'
_WL_UNIT='A'
_WL1=1.788970
_WL2=1.792850
_WL3=1.620790
_WLRATIO=0.500000
_ANODE='Co'
; (Data for Range number 1)
_DRIVE='PHI'
_STEPTIME=2.000000
_STEPSIZE=5.000000
_STEPMODE='C'
_START=0.000000
_THETA=26.059
_2THETA=52.118
_KHI=0.000000
_PHI=0.000000
_X=0.000000
_Y=0.000000
_Z=0.000000
_DIVERGENCE=3.000000
_ANTISCATTER=3.000000
_DETECTOR=1
; S.C.
_HV=687
_GAIN=80
_LLD=0.690000
_ULD=1.866000
_DETECTORSLIT='unkn'
_AUX1=0.000000
_AUX2=0.000000
_AUX3=0.000000
_TIMESTARTED=14
_TEMP_RATE=0.000000
_TEMP_DELAY=0.000000
_KV=35
_MA=40
_RANGE_WL=1.788970
_3DPLANE=0
_2THETACOUNTS
   0.0000      5560
   5.0000      5647
  10.0000      5664
  15.0000      5454
  20.0000      5412
  25.0000      5222
  30.0000      4779
  35.0000      4616
  40.0000      4587
  45.0000      4695
  50.0000      4808
  55.0000      5032
  60.0000      5385
  65.0000      5424
  70.0000      5467
  75.0000      5573
  80.0000      5592
  85.0000      5484
  90.0000      5481
  95.0000      5564
 100.0000      5501
 105.0000      5466
 110.0000      5460
 115.0000      5181
 120.0000      5186
 125.0000      5267
 130.0000      5484
 135.0000      5466
 140.0000      5396
 145.0000      5508
 150.0000      5526
 155.0000      5532
 160.0000      5591
 165.0000      5476
 170.0000      5347
 175.0000      5401
 180.0000      5600
 185.0000      5748
 190.0000      5745
 195.0000      5665
 200.0000      5416
 205.0000      5245
 210.0000      5235
 215.0000      5227
 220.0000      5151
 225.0000      5161
 230.0000      5062
 235.0000      5067
 240.0000      5214
 245.0000      5166
 250.0000      5057
 255.0000      5225
 260.0000      5226
 265.0000      5276
 270.0000      5349
 275.0000      5256
 280.0000      5354
 285.0000      5351
 290.0000      5094
 295.0000      5239
 300.0000      5071
 305.0000      4913
 310.0000      4926
 315.0000      5050
 320.0000      4980
 325.0000      5055
 330.0000      5089
 335.0000      5245
 340.0000      5380
 345.0000      5489
 350.0000      5552
 355.0000      5718
; (Data for Range number 2)
_DRIVE='PHI'
_STEPTIME=2.000000
_STEPSIZE=5.000000
_STEPMODE='C'
_START=0.000000
_THETA=26.059
_2THETA=52.118
_KHI=5.000000
_PHI=0.000000
_X=0.000000
_Y=0.000000
_Z=0.000000
_DIVERGENCE=3.000000
_ANTISCATTER=3.000000
_DETECTOR=1
; S.C.
_HV=687
_GAIN=80
_LLD=0.690000
_ULD=1.866000
_DETECTORSLIT='unkn'
_AUX1=0.000000
_AUX2=0.000000
_AUX3=0.000000
_TIMESTARTED=219
_TEMP_RATE=0.000000
_TEMP_DELAY=0.000000
_KV=35
_MA=40
_RANGE_WL=1.788970
_3DPLANE=0
_2THETACOUNTS
   0.0000      4755
   5.0000      4419
  10.0000      4573
  15.0000      5022
  20.0000      4528
  25.0000      4737
  30.0000      4442
  35.0000      4763
  40.0000      4702
  45.0000      4571
  50.0000      4782
  55.0000      4800
  60.0000      4948
  65.0000      4771
  70.0000      4810
  75.0000      4749
  80.0000      5125
  85.0000      5106
  90.0000      5210
  95.0000      5153
 100.0000      4820
 105.0000      4841
 110.0000      4881
 115.0000      4927
 120.0000      4856
 125.0000      4529
 130.0000      4652
 135.0000      4966
 140.0000      5271
 145.0000      4877
 150.0000      4555
 155.0000      4891
 160.0000      5292
 165.0000      5216
 170.0000      4990
 175.0000      4617
 180.0000      4393
 185.0000      4678
 190.0000      5103
 195.0000      5874
 200.0000      6286
 205.0000      5859
 210.0000      5414
 215.0000      5509
 220.0000      5532
 225.0000      4937
 230.0000      4897
 235.0000      4978
 240.0000      5444
 245.0000      5395
 250.0000      5912
 255.0000      5357
 260.0000      5600
 265.0000      5598
 270.0000      5274
 275.0000      5486
 280.0000      5948
 285.0000      5765
 290.0000      5901
 295.0000      5791
 300.0000      6143
 305.0000      5859
 310.0000      5136
 315.0000      5381
 320.0000      4997
 325.0000      5257
 330.0000      5292
 335.0000      5409
 340.0000      5291
 345.0000      5685
 350.0000      5492
 355.0000      4942
; (Data for Range number 3)
_DRIVE='PHI'
_STEPTIME=2.000000
_STEPSIZE=5.000000
_STEPMODE='C'
_START=0.000000
_THETA=26.059
_2THETA=52.118
_KHI=10
_PHI=0.000000
_X=0.000000
_Y=0.000000
_Z=0.000000
_DIVERGENCE=3.000000
_ANTISCATTER=3.000000
_DETECTOR=1
; S.C.
_HV=687
_GAIN=80
_LLD=0.690000
_ULD=1.866000
_DETECTORSLIT='unkn'
_AUX1=0.000000
_AUX2=0.000000
_AUX3=0.000000
_TIMESTARTED=424
_TEMP_RATE=0.000000
_TEMP_DELAY=0.000000
_KV=35
_MA=40
_RANGE_WL=1.788970
_3DPLANE=0
_2THETACOUNTS
   0.0000      3894
   5.0000      4510
  10.0000      4053
  15.0000      4893
  20.0000      3894
  25.0000      4039
  30.0000      4801
  35.0000      4884
  40.0000      4721
  45.0000      4318
  50.0000      4795
  55.0000      5226
  60.0000      5404
  65.0000      5742
  70.0000      5011
  75.0000      4980
  80.0000      5297
  85.0000      4692
  90.0000      5061
  95.0000      5352
 100.0000      5133
 105.0000      5180
 110.0000      5048
 115.0000      5227
 120.0000      5368
 125.0000      4650
 130.0000      4932
 135.0000      4964
 140.0000      4835
 145.0000      4601
 150.0000      4470
 155.0000      4528
 160.0000      4723
 165.0000      4497
 170.0000      4540
 175.0000      4283
 180.0000      4607
 185.0000      4567
 190.0000      4749
 195.0000      4851
 200.0000      4642
 205.0000      4531
 210.0000      4910
 215.0000      4600
 220.0000      4525
 225.0000      4537
 230.0000      5137
 235.0000      5311
 240.0000      5340
 245.0000      5266
 250.0000      5622
 255.0000      6082
 260.0000      6000
 265.0000      6243
 270.0000      5298
 275.0000      6037
 280.0000      5829
 285.0000      6103
 290.0000      6423
 295.0000      5902
 300.0000      6234
 305.0000      6522
 310.0000      5388
 315.0000      5112
 320.0000      4719
 325.0000      4648
 330.0000      4614
 335.0000      4411
 340.0000      4862
 345.0000      4671
 350.0000      5060
 355.0000      3741
; (Data for Range number 4)
_DRIVE='PHI'
_STEPTIME=2.000000
_STEPSIZE=5.000000
_STEPMODE='C'
_START=0.000000
_THETA=26.059
_2THETA=52.118
_KHI=15
_PHI=0.000000
_X=0.000000
_Y=0.000000
_Z=0.000000
_DIVERGENCE=3.000000
_ANTISCATTER=3.000000
_DETECTOR=1
; S.C.
_HV=687
_GAIN=80
_LLD=0.690000
_ULD=1.866000
_DETECTORSLIT='unkn'
_AUX1=0.000000
_AUX2=0.000000
_AUX3=0.000000
_TIMESTARTED=629
_TEMP_RATE=0.000000
_TEMP_DELAY=0.000000
_KV=35
_MA=40
_RANGE_WL=1.788970
_3DPLANE=0
_2THETACOUNTS
   0.0000      4085
   5.0000      3973
  10.0000      4043
  15.0000      3950
  20.0000      4190
  25.0000      4462
  30.0000      4029
  35.0000      4099
  40.0000      4319
  45.0000      5157
  50.0000      4655
  55.0000      4909
  60.0000      4993
  65.0000      5455
  70.0000      5347
  75.0000      5138
  80.0000      5728
  85.0000      5775
  90.0000      5489
  95.0000      5900
 100.0000      5601
 105.0000      5479
 110.0000      5136
 115.0000      5269
 120.0000      4863
 125.0000      5221
[...]
_AUX2=0.000000
_AUX3=0.000000
_TIMESTARTED=12885
_TEMP_RATE=0.000000
_TEMP_DELAY=0.000000
_KV=35
_MA=40
_RANGE_WL=1.788970
_3DPLANE=0
_2THETACOUNTS
   0.0000     10409
; (Data for Range number 147)
_DRIVE='PHI'
_STEPTIME=20
_STEPSIZE=5.000000
_STEPMODE='S'
_START=0.000000
_THETA=52.5
_2THETA=105
_KHI=50
_PHI=0.000000
_X=0.000000
_Y=0.000000
_Z=0.000000
_DIVERGENCE=3.000000
_ANTISCATTER=3.000000
_DETECTOR=1
; S.C.
_HV=687
_GAIN=80
_LLD=0.690000
_ULD=1.866000
_DETECTORSLIT='unkn'
_AUX1=0.000000
_AUX2=0.000000
_AUX3=0.000000
_TIMESTARTED=12910
_TEMP_RATE=0.000000
_TEMP_DELAY=0.000000
_KV=35
_MA=40
_RANGE_WL=1.788970
_3DPLANE=0
_2THETACOUNTS
   0.0000     10374
; (Data for Range number 148)
_DRIVE='PHI'
_STEPTIME=20
_STEPSIZE=5.000000
_STEPMODE='S'
_START=0.000000
_THETA=52.5
_2THETA=105
_KHI=55
_PHI=0.000000
_X=0.000000
_Y=0.000000
_Z=0.000000
_DIVERGENCE=3.000000
_ANTISCATTER=3.000000
_DETECTOR=1
; S.C.
_HV=687
_GAIN=80
_LLD=0.690000
_ULD=1.866000
_DETECTORSLIT='unkn'
_AUX1=0.000000
_AUX2=0.000000
_AUX3=0.000000
_TIMESTARTED=12936
_TEMP_RATE=0.000000
_TEMP_DELAY=0.000000
_KV=35
_MA=40
_RANGE_WL=1.788970
_3DPLANE=0
_2THETACOUNTS
   0.0000     10234
; (Data for Range number 149)
_DRIVE='PHI'
_STEPTIME=20
_STEPSIZE=5.000000
_STEPMODE='S'
_START=0.000000
_THETA=52.5
_2THETA=105
_KHI=60
_PHI=0.000000
_X=0.000000
_Y=0.000000
_Z=0.000000
_DIVERGENCE=3.000000
_ANTISCATTER=3.000000
_DETECTOR=1
; S.C.
_HV=687
_GAIN=80
_LLD=0.690000
_ULD=1.866000
_DETECTORSLIT='unkn'
_AUX1=0.000000
_AUX2=0.000000
_AUX3=0.000000
_TIMESTARTED=12960
_TEMP_RATE=0.000000
_TEMP_DELAY=0.000000
_KV=35
_MA=40
_RANGE_WL=1.788970
_3DPLANE=0
_2THETACOUNTS
   0.0000     10411
; (Data for Range number 150)
_DRIVE='PHI'
_STEPTIME=20
_STEPSIZE=5.000000
_STEPMODE='S'
_START=0.000000
_THETA=52.5
_2THETA=105
_KHI=65
_PHI=0.000000
_X=0.000000
_Y=0.000000
_Z=0.000000
_DIVERGENCE=3.000000
_ANTISCATTER=3.000000
_DETECTOR=1
; S.C.
_HV=687
_GAIN=80
_LLD=0.690000
_ULD=1.866000
_DETECTORSLIT='unkn'
_AUX1=0.000000
_AUX2=0.000000
_AUX3=0.000000
_TIMESTARTED=12985
_TEMP_RATE=0.000000
_TEMP_DELAY=0.000000
_KV=35
_MA=40
_RANGE_WL=1.788970
_3DPLANE=0
_2THETACOUNTS
   0.0000     10204
; (Data for Range number 151)
_DRIVE='PHI'
_STEPTIME=20
_STEPSIZE=5.000000
_STEPMODE='S'
_START=0.000000
_THETA=52.5
_2THETA=105
_KHI=70
_PHI=0.000000
_X=0.000000
_Y=0.000000
_Z=0.000000
_DIVERGENCE=3.000000
_ANTISCATTER=3.000000
_DETECTOR=1
; S.C.
_HV=687
_GAIN=80
_LLD=0.690000
_ULD=1.866000
_DETECTORSLIT='unkn'
_AUX1=0.000000
_AUX2=0.000000
_AUX3=0.000000
_TIMESTARTED=13010
_TEMP_RATE=0.000000
_TEMP_DELAY=0.000000
_KV=35
_MA=40
_RANGE_WL=1.788970
_3DPLANE=0
_2THETACOUNTS
   0.0000     10414
; (Data for Range number 152)
_DRIVE='PHI'
_STEPTIME=20
_STEPSIZE=5.000000
_STEPMODE='S'
_START=0.000000
_THETA=52.5
_2THETA=105
_KHI=75
_PHI=0.000000
_X=0.000000
_Y=0.000000
_Z=0.000000
_DIVERGENCE=3.000000
_ANTISCATTER=3.000000
_DETECTOR=1
; S.C.
_HV=687
_GAIN=80
_LLD=0.690000
_ULD=1.866000
_DETECTORSLIT='unkn'
_AUX1=0.000000
_AUX2=0.000000
_AUX3=0.000000
_TIMESTARTED=13035
_TEMP_RATE=0.000000
_TEMP_DELAY=0.000000
_KV=35
_MA=40
_RANGE_WL=1.788970
_3DPLANE=0
_2THETACOUNTS
   0.0000     10260
; (Data for Range number 153)
_DRIVE='PHI'
_STEPTIME=20
_STEPSIZE=5.000000
_STEPMODE='S'
_START=0.000000
_THETA=52.5
_2THETA=105
_KHI=80
_PHI=0.000000
_X=0.000000
_Y=0.000000
_Z=0.000000
_DIVERGENCE=3.000000
_ANTISCATTER=3.000000
_DETECTOR=1
; S.C.
_HV=687
_GAIN=80
_LLD=0.690000
_ULD=1.866000
_DETECTORSLIT='unkn'
_AUX1=0.000000
_AUX2=0.000000
_AUX3=0.000000
_TIMESTARTED=13060
_TEMP_RATE=0.000000
_TEMP_DELAY=0.000000
_KV=35
_MA=40
_RANGE_WL=1.788970
_3DPLANE=0
_2THETACOUNTS
   0.0000      9946